Frequency (Hz) - Plot 0	Amplitude (V) - Plot 0	
301	0.205724	
300	0.38272	
300	0.382992	
399	0.403824	
399	0.403904	
500	0.426885	
600	0.454514	
600	0.454618	
700	0.484677	
800	0.517188	
800	0.517169	
900	0.55145	
1000	0.58687	
1000	0.586936	
1100	0.624031	
1200	0.661589	
1200	0.661805	
1300	0.700239	
1400	0.739287	
1400	0.739401	
1500	0.779163	
1500	0.77903	
1600	0.818869	
1700	0.859007	
1700	0.85896	
1800	0.899121	
1900	0.939508	
1900	0.939607	
2000	0.979844	
2100	1.0206	
2100	1.02051	
2200	1.06086	
2300	1.10128	
2300	1.10129	
2400	1.14132	
2500	1.18145	
2500	1.18133	
2600	1.22154	
2700	1.26136	
2700	1.26124	
2800	1.30074	
2800	1.30079	
2900	1.3401	
3000	1.37915	
3000	1.37908	
3100	1.41789	
3200	1.45645	
3200	1.4564	
3300	1.49478	
3400	1.53275	
3400	1.53263	
3500	1.57031	
3600	1.60765	
3600	1.6076	
3600	1.60762	
3800	1.68133	
3800	1.68136	
3900	1.71776	
4000	1.75392	
4000	1.75379	
4100	1.78952	
4200	1.8248	
4200	1.82475	
4300	1.85979	
4400	1.89425	
4400	1.89425	
4500	1.92841	
4600	1.96244	
4600	1.96249	
4700	1.99593	
4800	2.02898	
4800	2.02903	
4900	2.06189	
5000	2.094	
5000	2.09384	
5100	2.1259	
5200	2.15767	
5200	2.15763	
5300	2.18895	
5400	2.21968	
5400	2.21963	
5500	2.25014	
5600	2.28018	
5600	2.28015	
5700	2.30988	
5800	2.33902	
5800	2.33905	
5900	2.36799	
6000	2.39656	
6000	2.39661	
6100	2.42483	
6200	2.4526	
6300	2.48006	
6300	2.47997	
6400	2.50708	
6400	2.507	
6500	2.5337	
6600	2.56002	
6600	2.55987	
6700	2.58601	
6800	2.61185	
6800	2.61188	
6900	2.6371	
7000	2.66191	
7000	2.66199	
7100	2.68657	
7100	2.68649	
7200	2.71101	
7300	2.73487	
7300	2.73463	
7400	2.75828	
7500	2.78183	
7500	2.78172	
7600	2.80466	
7700	2.82733	
7700	2.82727	
7800	2.8497	
7900	2.87175	
7900	2.87156	
8000	2.89328	
8100	2.91501	
8100	2.91482	
8200	2.93606	
8300	2.957	
8300	2.95698	
8400	2.97755	
8500	2.99786	
8500	2.99793	
8600	3.01787	
8700	3.03776	
8700	3.03755	
8800	3.05716	
8900	3.07658	
8900	3.07635	
9000	3.09552	
9100	3.11421	
9100	3.11418	
9200	3.13274	
9200	3.13291	
9300	3.15101	
9400	3.16912	
9400	3.16914	
9500	3.18701	
9600	3.20452	
9600	3.20441	
9700	3.22163	
9800	3.2389	
9800	3.23893	
9900	3.25587	
10000	3.27254	
10000	3.27234	
10100	3.28895	
10200	3.30517	
10200	3.30504	
10300	3.32147	
10400	3.33732	
10400	3.33726	
10500	3.3532	
10600	3.36862	
10600	3.36858	
10700	3.38375	
10800	3.39897	
10800	3.39889	
10900	3.41393	
11000	3.42875	
11000	3.42849	
11100	3.44326	
11200	3.45767	
11200	3.45756	
11300	3.47188	
11400	3.48588	
11400	3.48592	
11500	3.4997	
11600	3.51339	
11600	3.51333	
11700	3.52698	
11800	3.54044	
11800	3.54028	
11900	3.55354	
11900	3.55333	
12000	3.5666	
12100	3.57964	
12100	3.57952	
12200	3.59243	
12300	3.60494	
12300	3.60499	
12400	3.61728	
12500	3.62925	
12500	3.62947	
12600	3.64167	
12700	3.65381	
12700	3.65383	
12800	3.66544	
12900	3.67725	
12900	3.67731	
13000	3.68892	
13100	3.70049	
13100	3.70052	
13200	3.71169	
13300	3.72268	
13300	3.72271	
13400	3.73373	
13500	3.74451	
13500	3.74457	
13600	3.75508	
13632	3.73914	
13700	3.76602	
13800	3.77622	
13900	3.78657	
13900	3.78652	
14000	3.79686	
14100	3.80711	
14100	3.80683	
14200	3.81704	
14300	3.82689	
14300	3.82682	
14400	3.83657	
14500	3.84615	
14500	3.84615	
14600	3.85591	
14700	3.86516	
14700	3.86525	
14800	3.87444	
14900	3.88364	
14900	3.88355	
15000	3.89261	
15100	3.90178	
15100	3.90156	
15200	3.91031	
15300	3.91921	
15300	3.91901	
15400	3.9278	
15500	3.93644	
15500	3.93605	
15600	3.94455	
15700	3.9528	
15700	3.953	
15800	3.96102	
15900	3.96929	
15900	3.96914	
16000	3.97731	
16000	3.97715	
16100	3.98513	
16200	3.99282	
16200	3.99303	
16300	4.00069	
16400	4.00833	
16500	4.01587	
16500	4.01586	
16600	4.02349	
16700	4.03063	
16700	4.03061	
16800	4.03796	
16900	4.04502	
16900	4.04491	
17000	4.05228	
17000	4.05228	
17100	4.05913	
17200	4.06614	
17200	4.06622	
17300	4.07326	
17400	4.07979	
17400	4.07989	
17500	4.08666	
17600	4.09309	
17600	4.09319	
17700	4.0996	
17800	4.10603	
17800	4.10623	
17900	4.11233	
18000	4.11855	
18000	4.11871	
18100	4.12486	
18200	4.13124	
18200	4.13106	
18300	4.13715	
18400	4.14335	
18400	4.14311	
18500	4.14916	
18600	4.1551	
18600	4.15502	
18700	4.16065	
18800	4.16647	
18800	4.16655	
18900	4.17211	
18900	4.17213	
19000	4.17769	
19100	4.18316	
19200	4.18872	
19200	4.18886	
19300	4.19432	
19400	4.19952	
19400	4.19949	
19500	4.20502	
19500	4.20484	
19600	4.2103	
19700	4.21544	
19700	4.21565	
19800	4.22042	
19900	4.22563	
19900	4.2256	
20000	4.23079	
20100	4.23554	
20100	4.2356	
20200	4.24044	
20300	4.24533	
20300	4.24541	
20400	4.25	
20500	4.25481	
20500	4.255	
20600	4.25956	
20700	4.26418	
20700	4.26433	
20800	4.26891	
20900	4.27347	
20900	4.27336	
21000	4.27789	
21100	4.28202	
21100	4.28237	
21200	4.28684	
21300	4.29086	
21300	4.29119	
21400	4.29535	
21500	4.29966	
21500	4.29966	
21600	4.30388	
21700	4.30805	
21700	4.30795	
21800	4.31206	
21900	4.31618	
21900	4.31603	
22000	4.31989	
22100	4.32406	
22100	4.3241	
22200	4.328	
22300	4.3319	
22300	4.33181	
22400	4.33567	
22500	4.33958	
22500	4.3397	
22600	4.34336	
22700	4.34703	
22700	4.34705	
22800	4.35082	
22900	4.35442	
22900	4.35456	
23000	4.35811	
23100	4.36186	
23100	4.36185	
23200	4.3656	
23300	4.36889	
23300	4.36881	
23400	4.37235	
23432	4.35346	
23500	4.3758	
23600	4.37906	
23600	4.37912	
23700	4.38247	
23800	4.38571	
23800	4.38589	
23900	4.38895	
24000	4.39245	
24100	4.39563	
24100	4.39588	
24200	4.39894	
24300	4.40227	
24300	4.40212	
24400	4.40519	
24500	4.4083	
24500	4.40837	
24600	4.41139	
24700	4.41451	
24700	4.41462	
24800	4.41755	
24900	4.42058	
24900	4.42071	
25000	4.42345	
25100	4.42667	
25100	4.4264	
25200	4.42942	
25300	4.43208	
25300	4.43236	
25400	4.43509	
25500	4.43787	
25500	4.43801	
25600	4.44065	
25700	4.44353	
25700	4.4435	
25800	4.44628	
25900	4.44868	
25900	4.44875	
26000	4.45147	
26100	4.45416	
26100	4.45413	
26200	4.45673	
26200	4.4568	
26300	4.45975	
26400	4.46201	
26500	4.46475	
26500	4.4646	
26500	4.46467	
26700	4.46963	
26700	4.46971	
26800	4.4723	
26900	4.47479	
26900	4.47462	
27000	4.47712	
27100	4.47954	
27100	4.47959	
27200	4.48191	
27300	4.48431	
27300	4.48431	
27400	4.48676	
27500	4.4891	
27500	4.48893	
27600	4.49166	
27700	4.49382	
27700	4.49377	
27800	4.49596	
27900	4.49835	
27900	4.49813	
28000	4.50057	
28000	4.50056	
28100	4.50267	
28200	4.50503	
28200	4.50491	
28300	4.50709	
28400	4.50933	
28500	4.51136	
28500	4.51141	
28600	4.51366	
28700	4.51554	
28700	4.51568	
28800	4.51783	
28800	4.51772	
28900	4.51961	
29000	4.52203	
29000	4.52174	
29100	4.52394	
29200	4.5259	
29200	4.52584	
29300	4.52787	
29400	4.52986	
29400	4.52986	
29500	4.53192	
29600	4.53368	
29600	4.53357	
29700	4.5357	
29800	4.53767	
29800	4.53737	
29900	4.53939	
30000	4.54138	
30000	4.54137	
30100	4.54317	
30200	4.54519	
30200	4.54499	
30300	4.54685	
30300	4.54693	
30400	4.54881	
30500	4.55047	
30500	4.55048	
30600	4.55209	
30700	4.55389	
30700	4.55387	
30800	4.55566	
30900	4.55759	
30900	4.55762	
31000	4.55923	
31100	4.56096	
31100	4.56104	
31200	4.56272	
31300	4.56416	
31300	4.56424	
31400	4.56596	
31500	4.56774	
31500	4.56766	
31600	4.56925	
31700	4.57095	
31700	4.57101	
31800	4.57273	
31800	4.57233	
31900	4.5741	
32000	4.57549	
32100	4.57716	
32100	4.57724	
32200	4.57874	
32300	4.58025	
32300	4.5802	
32400	4.58176	
32500	4.58326	
32500	4.5833	
32600	4.58489	
32700	4.58649	
32700	4.58653	
32800	4.58791	
32900	4.58949	
32900	4.5893	
33000	4.59079	
33100	4.59217	
33100	4.59235	
33200	4.59365	
33300	4.59522	
33300	4.59498	
33400	4.59687	
33500	4.59807	
33500	4.59781	
33600	4.59931	
33700	4.60065	
33700	4.60087	
33800	4.60223	
33900	4.60335	
33900	4.60355	
34000	4.60501	
34000	4.60479	
34100	4.60623	
34200	4.60702	
34200	4.60758	
34300	4.60871	
34400	4.61016	
34400	4.61012	
34500	4.61141	
34600	4.61279	
34600	4.61271	
34700	4.61388	
34800	4.61523	
34800	4.61518	
34800	4.6154	
35000	4.61765	
35000	4.61765	
35100	4.61893	
35200	4.62017	
35200	4.62005	
35300	4.62118	
35400	4.62274	
35400	4.62275	
35500	4.62399	
35600	4.62489	
35600	4.62519	
35700	4.62618	
35800	4.62751	
35800	4.62731	
35900	4.62894	
36000	4.62983	
36100	4.63117	
36100	4.63095	
36200	4.63204	
36300	4.63326	
36300	4.63308	
36400	4.63405	
36500	4.63545	
36500	4.63541	
36600	4.63661	
36700	4.638	
36700	4.6379	
36800	4.63891	
36800	4.63876	
36900	4.64008	
37000	4.64099	
37000	4.64103	
37100	4.64206	
37200	4.64321	
37270	4.61698	
37300	4.64422	
37400	4.64517	
37500	4.6462	
37500	4.64615	
37600	4.64722	
37700	4.6484	
37700	4.64803	
37800	4.64926	
37900	4.65029	
37900	4.65024	
38000	4.65134	
38100	4.65213	
38100	4.65236	
38200	4.65313	
38200	4.65296	
38300	4.6541	
38400	4.65541	
38400	4.65542	
38500	4.65635	
38600	4.65729	
38600	4.65761	
38700	4.65825	
38800	4.6591	
38900	4.65999	
38900	4.66018	
39000	4.66089	
39100	4.66177	
39100	4.66201	
39199	4.66292	
39199	4.66305	
39300	4.66393	
39400	4.66464	
39400	4.66474	
39500	4.66564	
39600	4.66641	
39600	4.66617	
39700	4.66731	
39800	4.66813	
39800	4.66827	
39899	4.66888	
39999	4.66993	
39999	4.67002	
40100	4.67066	
40200	4.67175	
40200	4.67141	
40300	4.67245	
40400	4.67332	
40400	4.67322	
40500	4.67406	
40600	4.67497	
40600	4.67484	
40699	4.67565	
40799	4.67664	
40799	4.67645	
40900	4.67744	
41000	4.67814	
41000	4.67844	
41100	4.67894	
41200	4.6801	
41200	4.67991	
41300	4.68075	
41400	4.68147	
41400	4.68133	
41499	4.68241	
41599	4.68294	
41599	4.68294	
41700	4.68393	
41800	4.68477	
41800	4.68462	
41900	4.68528	
42000	4.68622	
42000	4.68622	
42100	4.68686	
42100	4.687	
42200	4.68779	
42299	4.68862	
42299	4.68859	
42399	4.68927	
42500	4.69005	
42500	4.69007	
42600	4.69078	
42700	4.69149	
42700	4.6914	
42800	4.6922	
42900	4.69315	
42999	4.69346	
42999	4.69347	
43099	4.69411	
43199	4.69477	
43199	4.69493	
43300	4.69555	
43299	4.69569	
43400	4.69637	
43500	4.69701	
43500	4.69703	
43600	4.69758	
43700	4.69812	
43700	4.69815	
43799	4.69894	
43899	4.69985	
43899	4.69993	
43999	4.70046	
44100	4.70108	
44100	4.70116	
44200	4.7016	
44300	4.70248	
44300	4.70226	
44400	4.70281	
44500	4.70367	
44500	4.70362	
44599	4.70419	
44699	4.70499	
44699	4.7049	
44799	4.70554	
44799	4.70561	
44899	4.70621	
45000	4.70689	
45000	4.70678	
45100	4.70754	
45200	4.70825	
45200	4.70814	
45300	4.70877	
45399	4.70922	
45499	4.71006	
45499	4.70989	
45599	4.71063	
45699	4.71107	
45699	4.71109	
45800	4.71166	
45900	4.71245	
45900	4.71251	
46000	4.71306	
46000	4.7129	
46099	4.71362	
46199	4.71415	
46199	4.71433	
46299	4.71478	
46399	4.71538	
46399	4.71553	
46499	4.71608	
46600	4.71646	
46600	4.71677	
46700	4.71734	
46800	4.71762	
46800	4.71768	
46899	4.71832	
46999	4.71896	
46999	4.71887	
47099	4.71945	
47099	4.71921	
47199	4.72013	
47299	4.72043	
47299	4.7206	
47400	4.72107	
47500	4.72169	
47509	4.70675	
47600	4.72224	
47699	4.72275	
47699	4.72254	
47799	4.72322	
47899	4.72378	
47999	4.72417	
47999	4.72422	
48099	4.72487	
48099	4.72479	
48200	4.72541	
48300	4.72579	
48300	4.72579	
48400	4.72644	
48499	4.72681	
48500	4.72672	
48599	4.72751	
48699	4.72791	
48699	4.7279	
48799	4.72838	
48899	4.72897	
48899	4.72894	
49000	4.72952	
49100	4.72996	
49199	4.73055	
49199	4.73041	
49299	4.73115	
49399	4.73151	
49399	4.73153	
49499	4.73166	
49599	4.73242	
49599	4.73243	
49699	4.73288	
49800	4.73307	
49800	4.7333	
49900	4.73405	
